<?xml version="1.0" encoding="UTF-8"?>

<Bundle xmlns="http://hl7.org/fhir">
  <identifier>
    <system value="urn:ietf:rfc:3986"/>
    <value value="urn:uuid:4e875be5-a466-4025-9bea-563418087985"/>
  </identifier>
  <type value="document"/>
  <timestamp value="2020-10-29T15:04:26+00:00"/>
  <entry>
    <fullUrl value="urn:uuid:7671b8af-0302-4689-ae9a-f23985863ac1"/>
    <resource>
      <Composition>
        <language value="fr-CH"/>
        <extension url="http://fhir.ch/ig/ch-core/StructureDefinition/ch-ext-epr-setid">
          <valueIdentifier>
            <system value="urn:ietf:rfc:3986"/>
            <value value="urn:uuid:4e875be5-a466-4025-9bea-563418087985"/>
          </valueIdentifier>
        </extension>
        <extension url="http://fhir.ch/ig/ch-core/StructureDefinition/ch-ext-epr-versionnumber">
          <valueUnsignedInt value="1"/>
        </extension>
        <extension url="http://fhir.ch/ig/ch-core/StructureDefinition/ch-ext-epr-informationrecipient">
          <valueReference>
            <reference value="urn:uuid:4e6eb56d-d6b4-49da-b8bf-f2071312836b"/>
            <type value="Patient"/>
          </valueReference>
        </extension>
        <extension url="http://fhir.ch/ig/ch-core/StructureDefinition/ch-ext-epr-informationrecipient">
          <valueReference>
            <reference value="urn:uuid:b00c682e-2a7a-4946-a3a8-8e9ad99cdea5"/>
            <type value="Patient"/>
          </valueReference>
        </extension>
        <extension url="http://fhir.ch/ig/ch-core/StructureDefinition/ch-ext-epr-informationrecipient">
          <valueReference>
            <reference value="urn:uuid:08acdb62-07fd-4786-8343-94c7ad6001a9"/>
            <type value="Patient"/>
          </valueReference>
        </extension>
        <extension url="http://fhir.ch/ig/ch-core/StructureDefinition/ch-ext-epr-informationrecipient">
          <valueReference>
            <reference value="urn:uuid:76f33ef6-c148-487b-98e1-4de6847ded63"/>
            <type value="Patient"/>
          </valueReference>
        </extension>
        <extension url="http://fhir.ch/ig/ch-core/StructureDefinition/ch-ext-epr-informationrecipient">
          <valueReference>
            <reference value="urn:uuid:9f519835-7aab-4ea0-9823-07266796f097"/>
            <type value="Patient"/>
          </valueReference>
        </extension>
        <extension url="http://fhir.ch/ig/ch-core/StructureDefinition/ch-ext-epr-informationrecipient">
          <valueReference>
            <reference value="urn:uuid:96048c02-beca-4e1a-8d75-83c22da1d885"/>
            <type value="Patient"/>
          </valueReference>
        </extension>
        <extension url="http://fhir.ch/ig/ch-core/StructureDefinition/ch-ext-epr-informationrecipient">
          <valueReference>
            <reference value="urn:uuid:59f82adc-59de-4cbe-b164-8ca913a127e5"/>
            <type value="Patient"/>
          </valueReference>
        </extension>
        <extension url="http://fhir.ch/ig/ch-core/StructureDefinition/ch-ext-epr-informationrecipient">
          <valueReference>
            <reference value="urn:uuid:058cad1e-1987-42f3-ba21-a2745c83e211"/>
            <type value="Patient"/>
          </valueReference>
        </extension>
        <extension url="http://fhir.ch/ig/ch-core/StructureDefinition/ch-ext-epr-informationrecipient">
          <valueReference>
            <reference value="urn:uuid:ea09dfec-870f-4366-a1b4-dac70f583c2e"/>
            <type value="Patient"/>
          </valueReference>
        </extension>
        <extension url="http://fhir.ch/ig/ch-core/StructureDefinition/ch-ext-epr-informationrecipient">
          <valueReference>
            <reference value="urn:uuid:a1840303-27ba-4bc1-9b5f-bce225e0dd98"/>
            <type value="Patient"/>
          </valueReference>
        </extension>
        <identifier>
          <system value="urn:ietf:rfc:3986"/>
          <value value="urn:uuid:4e875be5-a466-4025-9bea-563418087985"/>
        </identifier>
        <status value="final"/>
        <type>
          <coding>
            <system value="http://loinc.org"/>
            <code value="56445-0"/>
            <display value="Medication summary"/>
          </coding>
          <coding>
            <system value="http://snomed.info/sct"/>
            <code value="721912009"/>
            <display value="Medication summary document (record artifact)"/>
          </coding>
        </type>
        <subject>
          <reference value="urn:uuid:a8e08f10-daa9-4b29-8986-40f14bb5e272"/>
          <type value="Patient"/>
        </subject>
        <date value="2020-10-29T15:04:26+00:00"/>
        <author>
          <extension url="http://fhir.ch/ig/ch-core/StructureDefinition/ch-ext-epr-time">
            <valueDateTime value="2020-10-22T09:42:41+00:00"/>
          </extension>
          <reference value="urn:uuid:7135cb35-873c-4b12-b400-98d68a55bfd4"/>
          <type value="Practitioner"/>
        </author>
        <title value="Liste de m&#xE9;dication"/>
        <confidentiality value="N">
          <extension url="http://fhir.ch/ig/ch-core/StructureDefinition/ch-ext-epr-confidentialitycode">
            <valueCodeableConcept>
              <coding>
                <system value="http://snomed.info/sct"/>
                <code value="17621005"/>
                <display value="Normal (qualifier value)"/>
              </coding>
            </valueCodeableConcept>
          </extension>
        </confidentiality>
        <custodian>
          <reference value="urn:uuid:ce1bd6dd-29a8-4b45-8b76-7eadd64a6e89"/>
          <type value="Organization"/>
        </custodian>
        <section>
          <title value="Liste de m&#xE9;dicaments"/>
          <code>
            <coding>
              <system value="http://loinc.org"/>
              <code value="10160-0"/>
              <display value="History of medication use"/>
            </coding>
          </code>
          <text>
            <status value="generated"/>
            <div xmlns="http://www.w3.org/1999/xhtml">Not implemented yet</div>
          </text>
          <entry>
            <reference value="urn:uuid:c06d2990-942d-444f-a497-37fd05432a72"/>
            <type value="MedicationStatement"/>
          </entry>
        </section>
      </Composition>
    </resource>
  </entry>
  <entry>
    <fullUrl value="urn:uuid:a8e08f10-daa9-4b29-8986-40f14bb5e272"/>
    <resource>
      <Patient>
        <identifier>
          <type>
            <coding>
              <system value="http://terminology.hl7.org/CodeSystem/v2-0203"/>
              <code value="MR"/>
            </coding>
          </type>
          <system value="urn:oid:2.999.756.42.2"/>
          <value value="12345678"/>
        </identifier>
        <name>
          <family value="Doe"/>
          <given value="John"/>
        </name>
        <gender value="female"/>
        <birthDate value="2000-01-01"/>
      </Patient>
    </resource>
  </entry>
  <entry>
    <fullUrl value="urn:uuid:7135cb35-873c-4b12-b400-98d68a55bfd4"/>
    <resource>
      <Practitioner>
        <identifier>
          <system value="urn:oid:2.51.1.3"/>
          <value value="7601007886685"/>
        </identifier>
      </Practitioner>
    </resource>
  </entry>
  <entry>
    <fullUrl value="urn:uuid:ce1bd6dd-29a8-4b45-8b76-7eadd64a6e89"/>
    <resource>
      <Organization>
        <identifier>
          <system value="urn:oid:2.51.1.3"/>
          <value value="7601000234438"/>
        </identifier>
        <name value="Hausarzt"/>
      </Organization>
    </resource>
  </entry>
  <entry>
    <fullUrl value="urn:uuid:4e6eb56d-d6b4-49da-b8bf-f2071312836b"/>
    <resource/>
  </entry>
  <entry>
    <fullUrl value="urn:uuid:b00c682e-2a7a-4946-a3a8-8e9ad99cdea5"/>
    <resource/>
  </entry>
  <entry>
    <fullUrl value="urn:uuid:08acdb62-07fd-4786-8343-94c7ad6001a9"/>
    <resource/>
  </entry>
  <entry>
    <fullUrl value="urn:uuid:76f33ef6-c148-487b-98e1-4de6847ded63"/>
    <resource/>
  </entry>
  <entry>
    <fullUrl value="urn:uuid:9f519835-7aab-4ea0-9823-07266796f097"/>
    <resource/>
  </entry>
  <entry>
    <fullUrl value="urn:uuid:96048c02-beca-4e1a-8d75-83c22da1d885"/>
    <resource/>
  </entry>
  <entry>
    <fullUrl value="urn:uuid:59f82adc-59de-4cbe-b164-8ca913a127e5"/>
    <resource/>
  </entry>
  <entry>
    <fullUrl value="urn:uuid:058cad1e-1987-42f3-ba21-a2745c83e211"/>
    <resource/>
  </entry>
  <entry>
    <fullUrl value="urn:uuid:ea09dfec-870f-4366-a1b4-dac70f583c2e"/>
    <resource/>
  </entry>
  <entry>
    <fullUrl value="urn:uuid:a1840303-27ba-4bc1-9b5f-bce225e0dd98"/>
    <resource/>
  </entry>
  <entry>
    <fullUrl value="urn:uuid:c06d2990-942d-444f-a497-37fd05432a72"/>
    <resource>
      <MedicationStatement>
        <contained>
          <Medication>
            <id value="med"/>
            <code>
              <coding>
                <system value="urn:oid:2.51.1.1"/>
                <code value="7680563180062"/>
                <display value="Dafalgan 1 g, 16 cp"/>
              </coding>
            </code>
            <form>
              <coding>
                <system value="urn:oid:0.4.0.127.0.16.1.1.2.1"/>
                <code value="10219000"/>
                <display value="Tablet"/>
              </coding>
            </form>
            <amount>
              <numerator>
                <value value="16"/>
              </numerator>
              <denominator>
                <value value="1"/>
              </denominator>
            </amount>
            <ingredient>
              <itemCodeableConcept>
                <coding>
                  <system value="http://snomed.info/sct"/>
                  <code value="N02BE01"/>
                  <display value="paracetamol"/>
                </coding>
              </itemCodeableConcept>
              <strength>
                <numerator>
                  <value value="1"/>
                  <unit value="cp"/>
                </numerator>
                <denominator>
                  <value value="1"/>
                  <unit value="1"/>
                </denominator>
              </strength>
            </ingredient>
          </Medication>
        </contained>
        <extension url="http://hl7.org/fhir/StructureDefinition/narrativeLink">
          <valueUrl value="section0013"/>
        </extension>
        <extension url="http://fhir.ch/ig/ch-emed/StructureDefinition/ch-emed-ext-substitution">
          <valueCodeableConcept>
            <coding>
              <system value="http://terminology.hl7.org/CodeSystem/v3-substanceAdminSubstitution"/>
              <code value="E"/>
              <display value="equivalent"/>
            </coding>
          </valueCodeableConcept>
        </extension>
        <identifier>
          <system value="urn:ietf:rfc:3986"/>
          <value value="urn:uuid:7fba28a4-f518-11e9-802a-5aa538984bd8"/>
        </identifier>
        <status value="completed"/>
        <medicationReference>
          <reference value="#med"/>
          <type value="Medication"/>
        </medicationReference>
        <subject>
          <reference value="urn:uuid:a8e08f10-daa9-4b29-8986-40f14bb5e272"/>
          <type value="Patient"/>
        </subject>
        <reasonCode>
          <extension url="http://hl7.org/fhir/StructureDefinition/narrativeLink">
            <valueUrl value="#MTP.reason.0"/>
          </extension>
        </reasonCode>
        <note>
          <extension url="http://hl7.org/fhir/StructureDefinition/narrativeLink">
            <valueUrl value="#MTP.frequency.0"/>
          </extension>
        </note>
        <dosage>
          <extension url="http://fhir.ch/ig/ch-emed/StructureDefinition/ch-emed-ext-dosagetype">
            <valueIdentifier>
              <value value="1.3.6.1.4.1.19376.1.5.3.1.4.7.1"/>
            </valueIdentifier>
          </extension>
          <timing>
            <repeat>
              <boundsPeriod>
                <start value="2019-02-12T01:00:00+01:00"/>
              </boundsPeriod>
              <when value="ACM"/>
              <when value="ACD"/>
              <when value="ACV"/>
            </repeat>
          </timing>
          <route>
            <coding>
              <system value="urn:oid:0.4.0.127.0.16.1.1.2.1"/>
              <code value="20053000"/>
              <display value="Oral use"/>
            </coding>
          </route>
          <doseAndRate>
            <doseQuantity>
              <value value="1"/>
            </doseQuantity>
          </doseAndRate>
        </dosage>
        <dosage>
          <extension url="http://hl7.org/fhir/StructureDefinition/narrativeLink">
            <valueUrl value="#MTP.frequency.0"/>
          </extension>
        </dosage>
      </MedicationStatement>
    </resource>
  </entry>
</Bundle>