<?xml version="1.0" encoding="UTF-8"?>

<Bundle xmlns="http://hl7.org/fhir" xmlns:v3="urn:hl7-org:v3">
  <identifier>
    <system value="urn:ietf:rfc:3986"/>
    <value value="urn:uuid:d8143fea-4778-11e6-beb8-9e71128cae77"/>
  </identifier>
  <type value="document"/>
  <timestamp value="2012-02-04T14:00:00+01:00"/>
  <entry>
    <fullUrl value="urn:uuid:99051396-69e5-4cbe-bf6a-1787bd58e05e"/>
    <resource>
      <Composition>
        <language value="de-CH"/>
        <extension url="http://fhir.ch/ig/ch-core/StructureDefinition/ch-ext-epr-setid">
          <valueIdentifier>
            <system value="urn:ietf:rfc:3986"/>
            <value value="urn:uuid:d8143fea-4778-11e6-beb8-9e71128cae77"/>
          </valueIdentifier>
        </extension>
        <extension url="http://fhir.ch/ig/ch-core/StructureDefinition/ch-ext-epr-versionnumber">
          <valueUnsignedInt value="1"/>
        </extension>
        <extension url="http://fhir.ch/ig/ch-core/StructureDefinition/ch-ext-epr-informationrecipient">
          <valueReference>
            <reference value="urn:uuid:dbd0a607-29b3-4051-a24d-db3f3e15878c"/>
            <type value="Patient"/>
          </valueReference>
        </extension>
        <identifier>
          <system value="urn:ietf:rfc:3986"/>
          <value value="urn:uuid:d8143fea-4778-11e6-beb8-9e71128cae77"/>
        </identifier>
        <status value="final"/>
        <type>
          <coding>
            <system value="http://loinc.org"/>
            <code value="60593-1"/>
            <display value="Medication dispensed.extended"/>
          </coding>
        </type>
        <subject>
          <reference value="urn:uuid:5bfeafa2-7099-4761-ae22-dcd01936e330"/>
          <type value="Patient"/>
        </subject>
        <date value="2012-02-04T14:00:00+01:00"/>
        <author>
          <extension url="http://fhir.ch/ig/ch-core/StructureDefinition/ch-ext-epr-time">
            <valueDateTime value="2012-02-04T14:00:00+01:00"/>
          </extension>
          <reference value="urn:uuid:98e012bc-6fe8-4b1a-922d-b31214b829c3"/>
          <type value="Practitioner"/>
        </author>
        <author>
          <reference value="urn:uuid:45a7f469-ed27-4575-8707-3070f0792e3b"/>
          <type value="Organization"/>
        </author>
        <title value="Abgabe"/>
        <confidentiality value="N">
          <extension url="http://fhir.ch/ig/ch-core/StructureDefinition/ch-ext-epr-confidentialitycode">
            <valueCodeableConcept>
              <coding>
                <system value="http://snomed.info/sct"/>
                <code value="17621005"/>
                <display value="Normally accessible"/>
              </coding>
            </valueCodeableConcept>
          </extension>
        </confidentiality>
        <custodian>
          <reference value="urn:uuid:331aace5-32e8-4656-8083-0f21c42f8d8c"/>
          <type value="Organization"/>
        </custodian>
        <section>
          <extension url="http://fhir.ch/ig/ch-core/StructureDefinition/ch-ext-epr-sectionid">
            <valueIdentifier>
              <system value="urn:ietf:rfc:3986"/>
              <value value="urn:uuid:d8143fea-4778-11e6-beb8-9e71128cae77"/>
            </valueIdentifier>
          </extension>
          <title value="Abgabe eines Medikaments"/>
          <code>
            <coding>
              <system value="http://loinc.org"/>
              <code value="60590-7"/>
              <display value="Medication dispensed.brief"/>
            </coding>
          </code>
          <text>
            <status value="generated"/>
            <div xmlns="http://www.w3.org/1999/xhtml">
              <table>
                <thead>
                  <tr>
                    <th>Präpartename</th>
                    <th>Wirkstoffname</th>
                    <th>Galenische Form</th>
                    <th>Dosis pro Einheit</th>
                    <th>Anzahl Packungen</th>
                    <th>Packungsgrösse</th>
                    <th>Dosierung</th>
                    <th>Dos.Morgen</th>
                    <th>Dos.Mittag</th>
                    <th>Dos.Abend</th>
                    <th>Dos.Nacht</th>
                    <th>Verabreichungsweg</th>
                    <th>Kommentar</th>
                    <th>Behandlungsrund</th>
                    <th>Datum/Zeit der Abgabe/ Anwendung</th>
                    <th>Identifikation des Empfängers</th>
                  </tr>
                </thead>
                <tbody>
                  <tr id="dis.1">
                    <td id="dis.1.brandedmedication">Beloc Zok</td>
                    <td id="dis.1.ingredient">Metoprolol</td>
                    <td id="dis.1.packageform">Ret Tbl</td>
                    <td id="dis.1.dosequantity">50 mg</td>
                    <td id="dis.1.nopackages">1</td>
                    <td id="dis.1.packagesize">30 Stk</td>
                    <td id="dis.1.dosageintakemode">Morgens 1 und abends 1/2 Tablette nehmen</td>
                    <td id="dis.1.dosagemorning">1</td>
                    <td id="dis.1.dosagelunch">0</td>
                    <td id="dis.1.dosageevening">0.5</td>
                    <td id="dis.1.routecode">oral</td>
                    <td id="dis.1.note"/>
                    <td id="dis.1.datefromto"/>
                    <td id="dis.1.reason">Bluthochdruck</td>
                    <td id="dis.1.dipsensedate"/>
                    <td id="dis.1.dipsenseto"/>
                  </tr>
                </tbody>
              </table>
            </div>
          </text>
          <entry>
            <reference value="urn:uuid:4f1318bc-88d5-4099-a375-526bf5ca76aa"/>
            <type value="MedicationDispense"/>
          </entry>
        </section>
      </Composition>
    </resource>
  </entry>
  <entry>
    <fullUrl value="urn:uuid:5bfeafa2-7099-4761-ae22-dcd01936e330"/>
    <resource>
      <Patient>
        <identifier>
          <type>
            <coding>
              <system value="http://terminology.hl7.org/CodeSystem/v2-0203"/>
              <code value="MR"/>
            </coding>
          </type>
          <system value="urn:oid:2.999"/>
          <value value="11111111"/>
        </identifier>
        <name>
          <family value="Wegm&#xFC;ller"/>
          <given value="Monika"/>
        </name>
        <gender value="female"/>
        <birthDate value="1943-05-15"/>
        <address>
          <line value="Wiesenstr. 12"/>
          <city value="Z&#xFC;rich"/>
          <postalCode value="8003"/>
          <country value="CH"/>
        </address>
      </Patient>
    </resource>
  </entry>
  <entry>
    <fullUrl value="urn:uuid:98e012bc-6fe8-4b1a-922d-b31214b829c3"/>
    <resource>
      <Practitioner>
        <identifier>
          <system value="urn:oid:2.51.1.3"/>
          <value value="7601000234438"/>
        </identifier>
        <name>
          <family value="Hausarzt"/>
          <given value="Familien"/>
        </name>
      </Practitioner>
    </resource>
  </entry>
  <entry>
    <fullUrl value="urn:uuid:45a7f469-ed27-4575-8707-3070f0792e3b"/>
    <resource>
      <Organization>
        <identifier>
          <system value="urn:oid:2.51.1.3"/>
          <value value="7601000234438"/>
        </identifier>
        <name value="Hausarzt"/>
        <telecom>
          <extension url="http://hl7.org/fhir/StructureDefinition/iso21090-nullFlavor">
            <valueCode value="NI"/>
          </extension>
        </telecom>
        <address>
          <line value="Krankenstrasse 2"/>
          <city value="Z&#xFC;rich"/>
          <postalCode value="8005"/>
          <country value="CH"/>
        </address>
      </Organization>
    </resource>
  </entry>
  <entry>
    <fullUrl value="urn:uuid:331aace5-32e8-4656-8083-0f21c42f8d8c"/>
    <resource>
      <Organization>
        <identifier>
          <system value="urn:oid:2.51.1.3"/>
          <value value="7601000234438"/>
        </identifier>
        <name value="Hausarzt"/>
      </Organization>
    </resource>
  </entry>
  <entry>
    <fullUrl value="urn:uuid:dbd0a607-29b3-4051-a24d-db3f3e15878c"/>
    <resource>
      <Patient>
        <name>
          <family value="Wegm&#xFC;ller"/>
          <given value="Monika"/>
        </name>
        <address>
          <line value="Wiesenstr. 12"/>
          <city value="Z&#xFC;rich"/>
          <postalCode value="8003"/>
          <country value="CH"/>
        </address>
      </Patient>
    </resource>
  </entry>
  <entry>
    <fullUrl value="urn:uuid:4f1318bc-88d5-4099-a375-526bf5ca76aa"/>
    <resource>
      <MedicationDispense>
        <contained>
          <Medication>
            <id value="med"/>
            <code>
              <extension url="http://hl7.org/fhir/StructureDefinition/narrativeLink">
                <valueUrl value="#dis.1.brandedmedication"/>
              </extension>
              <coding>
                <system value="urn:oid:2.51.1.1"/>
                <code value="7680521101306"/>
                <display value="BELOC ZOK Ret Tabl 50 mg 30 Stk"/>
              </coding>
              <text value="BELOC ZOK Ret Tabl 50 mg"/>
            </code>
            <form>
              <coding>
                <system value="urn:oid:0.4.0.127.0.16.1.1.2.1"/>
                <code value="10219000"/>
                <display value="Tablet"/>
              </coding>
            </form>
            <amount>
              <numerator>
                <value value="30"/>
              </numerator>
              <denominator>
                <value value="1"/>
              </denominator>
            </amount>
            <ingredient>
              <itemCodeableConcept>
                <coding>
                  <system value="http://snomed.info/sct"/>
                  <code value="372826007"/>
                  <display value="Metoprolol (substance)"/>
                </coding>
                <text value="Metoprolol"/>
              </itemCodeableConcept>
              <strength>
                <numerator>
                  <value value="50"/>
                  <unit value="mg"/>
                </numerator>
                <denominator>
                  <value value="1"/>
                </denominator>
              </strength>
            </ingredient>
          </Medication>
        </contained>
        <extension url="http://hl7.org/fhir/StructureDefinition/narrativeLink">
          <valueUrl value="#dis.1"/>
        </extension>
        <extension url="http://fhir.ch/ig/ch-emed/StructureDefinition/ch-emed-ext-treatmentplan">
          <extension url="id">
            <valueIdentifier>
              <system value="urn:ietf:rfc:3986"/>
              <value value="urn:uuid:17931678-20b4-11e6-b67b-9e71128cca77"/>
            </valueIdentifier>
          </extension>
          <extension url="externalDocumentId">
            <valueIdentifier>
              <system value="urn:ietf:rfc:3986"/>
              <value value="urn:uuid:17931678-20b4-11e6-b67b-9e71128cca77"/>
            </valueIdentifier>
          </extension>
        </extension>
        <identifier>
          <system value="urn:ietf:rfc:3986"/>
          <value value="urn:uuid:d8143fea-4778-11e6-beb8-9e71128cae77"/>
        </identifier>
        <status value="completed"/>
        <medicationReference>
          <reference value="#med"/>
        </medicationReference>
        <subject>
          <reference value="urn:uuid:5bfeafa2-7099-4761-ae22-dcd01936e330"/>
          <type value="Patient"/>
        </subject>
        <quantity>
          <value value="1"/>
        </quantity>
        <note>
          <extension url="http://hl7.org/fhir/StructureDefinition/narrativeLink">
            <valueUrl value="#dis.1.note"/>
          </extension>
        </note>
        <dosageInstruction>
          <extension url="http://hl7.org/fhir/StructureDefinition/narrativeLink">
            <valueUrl value="#dis.1.dosageintakemode"/>
          </extension>
          <text value="Morgens 1 und abends 1/2 Tablette nehmen"/>
        </dosageInstruction>
        <dosageInstruction>
          <extension url="http://fhir.ch/ig/ch-emed/StructureDefinition/ch-emed-ext-dosagetype">
            <valueIdentifier>
              <value value="1.3.6.1.4.1.19376.1.5.3.1.4.9"/>
            </valueIdentifier>
          </extension>
          <sequence v3:value="1"/>
          <timing>
            <repeat>
              <boundsPeriod>
                <start value="2012-02-04"/>
              </boundsPeriod>
              <when value="ACM"/>
            </repeat>
          </timing>
          <route>
            <coding>
              <system value="urn:oid:0.4.0.127.0.16.1.1.2.1"/>
              <code value="20053000"/>
              <display value="Oral use"/>
            </coding>
          </route>
          <doseAndRate>
            <doseQuantity>
              <value value="1"/>
            </doseQuantity>
          </doseAndRate>
        </dosageInstruction>
        <dosageInstruction>
          <extension url="http://fhir.ch/ig/ch-emed/StructureDefinition/ch-emed-ext-dosagetype">
            <valueIdentifier>
              <value value="1.3.6.1.4.1.19376.1.5.3.1.4.9"/>
            </valueIdentifier>
          </extension>
          <sequence v3:value="2"/>
          <timing>
            <repeat>
              <boundsPeriod>
                <start value="2012-02-04"/>
              </boundsPeriod>
              <when value="ACV"/>
            </repeat>
          </timing>
          <route>
            <coding>
              <system value="urn:oid:0.4.0.127.0.16.1.1.2.1"/>
              <code value="20053000"/>
              <display value="Oral use"/>
            </coding>
          </route>
          <doseAndRate>
            <doseQuantity>
              <value value="0.5"/>
            </doseQuantity>
          </doseAndRate>
        </dosageInstruction>
      </MedicationDispense>
    </resource>
  </entry>
</Bundle>