<?xml version="1.0" encoding="UTF-8"?>

<Bundle xmlns="http://hl7.org/fhir">
    <identifier>
        <system value="urn:ietf:rfc:3986"/>
        <value value="urn:uuid:c9f758a1-296c-4710-84d4-e181db8c7478"/>
    </identifier>
    <type value="document"/>
    <timestamp value="2011-11-29T11:00:00+01:00"/>
    <entry>
        <fullUrl value="urn:uuid:8f693b96-d067-49f2-80c2-36d1b5f9e8b2"/>
        <resource>
            <Composition>
                <language value="de-CH"/>
                <extension url="http://fhir.ch/ig/ch-core/StructureDefinition/ch-ext-epr-setid">
                    <valueIdentifier>
                        <system value="urn:ietf:rfc:3986"/>
                        <value value="urn:uuid:c9f758a1-296c-4710-84d4-e181db8c7478"/>
                    </valueIdentifier>
                </extension>
                <extension url="http://fhir.ch/ig/ch-core/StructureDefinition/ch-ext-epr-versionnumber">
                    <valueUnsignedInt value="1"/>
                </extension>
                <extension url="http://fhir.ch/ig/ch-core/StructureDefinition/ch-ext-epr-informationrecipient">
                    <valueReference>
                        <reference value="urn:uuid:32a9246d-57d9-4571-9452-80da29ae7204"/>
                        <type value="Patient"/>
                    </valueReference>
                </extension>
                <identifier>
                    <system value="urn:ietf:rfc:3986"/>
                    <value value="urn:uuid:c9f758a1-296c-4710-84d4-e181db8c7478"/>
                </identifier>
                <status value="final"/>
                <type>
                    <coding>
                        <system value="http://loinc.org"/>
                        <code value="77603-9"/>
                        <display value="Medication treatment plan.extended"/>
                    </coding>
                </type>
                <subject>
                    <reference value="urn:uuid:a8f1870c-6dee-4aae-b3c0-aacec81e3255"/>
                    <type value="Patient"/>
                </subject>
                <date value="2011-11-29T11:00:00+01:00"/>
                <author>
                    <extension url="http://fhir.ch/ig/ch-core/StructureDefinition/ch-ext-epr-time">
                        <valueDateTime value="2011-11-29T11:00:00+01:00"/>
                    </extension>
                    <reference value="urn:uuid:5cf812c5-6e1b-4d3f-bd21-5f3b8af100da"/>
                    <type value="Practitioner"/>
                </author>
                <author>
                    <reference value="urn:uuid:f3c23e2f-555a-4080-98db-01247e1f3179"/>
                    <type value="Organization"/>
                </author>
                <title value="Therapieentscheid Medikation"/>
                <confidentiality value="N">
                    <extension url="http://fhir.ch/ig/ch-core/StructureDefinition/ch-ext-epr-confidentialitycode">
                        <valueCodeableConcept>
                            <coding>
                                <system value="http://snomed.info/sct"/>
                                <code value="17621005"/>
                                <display value="Normally accessible"/>
                            </coding>
                        </valueCodeableConcept>
                    </extension>
                </confidentiality>
                <custodian>
                    <reference value="urn:uuid:00485b7b-49f0-460a-87c0-70c85e3a89b7"/>
                    <type value="Organization"/>
                </custodian>
                <section>
                    <extension url="http://fhir.ch/ig/ch-core/StructureDefinition/ch-ext-epr-sectionid">
                        <valueIdentifier>
                            <system value="urn:ietf:rfc:3986"/>
                            <value value="urn:uuid:c9f758a1-296c-4710-84d4-e181db8c7478"/>
                        </valueIdentifier>
                    </extension>
                    <title value="Medikament&#xF6;ser Behandlungsplan"/>
                    <code>
                        <coding>
                            <system value="http://loinc.org"/>
                            <code value="77604-7"/>
                            <display value="Medication treatment plan.brief"/>
                        </coding>
                    </code>
                    <text>
                        <status value="generated"/>
                        <div xmlns="http://www.w3.org/1999/xhtml">
                            <table>
                                <thead>
                                    <tr>
                                        <th>Präpartename</th>
                                        <th>Wirkstoffname</th>
                                        <th>Galenische Form</th>
                                        <th>Dosis pro Einheit</th>
                                        <th>Dosierung</th>
                                        <th>Dos.Morgen</th>
                                        <th>Dos.Mittag</th>
                                        <th>Dos.Abend</th>
                                        <th>Dos.Nacht</th>
                                        <th>Verabreichungsweg</th>
                                        <th>Kommentar</th>
                                        <th>Anwendungsdauer</th>
                                        <th>Behandlungsgrund</th>
                                    </tr>
                                </thead>
                                <tbody>
                                    <tr id="mtp.1">
                                        <td id="mtp.1.brandedmedication">Triatec</td>
                                        <td id="mtp.1.ingredient">Ramipril</td>
                                        <td id="mtp.1.packageform">Tbl</td>
                                        <td id="mtp.1.dosequantity">2.5 mg</td>
                                        <td id="mtp.1.dosageintakemode">Morgens 1/2 Tablette nehmen</td>
                                        <td id="mtp.1.dosagemorning">0.5</td>
                                        <td id="mtp.1.dosagelunch">0</td>
                                        <td id="mtp.1.dosageevening">0</td>
                                        <td id="mtp.1.dosagenight">0</td>
                                        <td id="mtp.1.routecode">oral</td>
                                        <td id="mtp.1.note"/>
                                        <td id="mtp.1.datefromto"/>
                                        <td id="mtp.1.reason">Bluthochdruck</td>
                                    </tr>
                                </tbody>
                            </table>
                        </div>
                    </text>
                    <entry>
                        <reference value="urn:uuid:ddc67070-690f-47c1-bf39-3870bdbe7803"/>
                        <type value="MedicationStatement"/>
                    </entry>
                </section>
            </Composition>
        </resource>
    </entry>
    <entry>
        <fullUrl value="urn:uuid:a8f1870c-6dee-4aae-b3c0-aacec81e3255"/>
        <resource>
            <Patient>
                <identifier>
                    <type>
                        <coding>
                            <system value="http://terminology.hl7.org/CodeSystem/v2-0203"/>
                            <code value="MR"/>
                        </coding>
                    </type>
                    <system value="urn:oid:2.999"/>
                    <value value="11111111"/>
                </identifier>
                <name>
                    <family value="Wegm&#xFC;ller"/>
                    <given value="Monika"/>
                </name>
                <gender value="female"/>
                <birthDate value="1943-05-15"/>
                <address>
                    <line value="Wiesenstr. 12"/>
                    <city value="Z&#xFC;rich"/>
                    <postalCode value="8003"/>
                    <country value="CH"/>
                </address>
            </Patient>
        </resource>
    </entry>
    <entry>
        <fullUrl value="urn:uuid:5cf812c5-6e1b-4d3f-bd21-5f3b8af100da"/>
        <resource>
            <Practitioner>
                <identifier>
                    <system value="urn:oid:2.51.1.3"/>
                    <value value="7601000234438"/>
                </identifier>
                <name>
                    <family value="Hausarzt"/>
                    <given value="Familien"/>
                </name>
            </Practitioner>
        </resource>
    </entry>
    <entry>
        <fullUrl value="urn:uuid:f3c23e2f-555a-4080-98db-01247e1f3179"/>
        <resource>
            <Organization>
                <identifier>
                    <system value="urn:oid:2.51.1.3"/>
                    <value value="7601000234438"/>
                </identifier>
                <name value="Hausarzt"/>
                <telecom>
                    <extension url="http://hl7.org/fhir/StructureDefinition/iso21090-nullFlavor">
                        <valueCode value="NI"/>
                    </extension>
                </telecom>
                <address>
                    <line value="Krankenstrasse 2"/>
                    <city value="Z&#xFC;rich"/>
                    <postalCode value="8005"/>
                    <country value="CH"/>
                </address>
            </Organization>
        </resource>
    </entry>
    <entry>
        <fullUrl value="urn:uuid:00485b7b-49f0-460a-87c0-70c85e3a89b7"/>
        <resource>
            <Organization>
                <identifier>
                    <system value="urn:oid:2.51.1.3"/>
                    <value value="7601000234438"/>
                </identifier>
                <name value="Hausarzt"/>
            </Organization>
        </resource>
    </entry>
    <entry>
        <fullUrl value="urn:uuid:32a9246d-57d9-4571-9452-80da29ae7204"/>
        <resource>
            <Patient>
                <name>
                    <family value="Wegm&#xFC;ller"/>
                    <given value="Monika"/>
                </name>
                <address>
                    <line value="Wiesenstr. 12"/>
                    <city value="Z&#xFC;rich"/>
                    <postalCode value="8003"/>
                    <country value="CH"/>
                </address>
            </Patient>
        </resource>
    </entry>
    <entry>
        <fullUrl value="urn:uuid:ddc67070-690f-47c1-bf39-3870bdbe7803"/>
        <resource>
            <MedicationStatement>
                <contained>
                    <Medication>
                        <id value="med"/>
                        <code>
                            <extension url="http://hl7.org/fhir/StructureDefinition/narrativeLink">
                                <valueUrl value="#mtp.1.brandedmedication"/>
                            </extension>
                            <coding>
                                <system value="urn:oid:2.51.1.1"/>
                                <code value="7680538751228"/>
                                <display value="TRIATEC Tabl 2.5 mg 20 Stk"/>
                            </coding>
                            <text value="TRIATEC Tabl 2.5 mg"/>
                        </code>
                        <form>
                            <coding>
                                <system value="urn:oid:0.4.0.127.0.16.1.1.2.1"/>
                                <code value="10219000"/>
                                <display value="Tablet"/>
                            </coding>
                        </form>
                        <amount>
                            <numerator>
                                <value value="20"/>
                            </numerator>
                            <denominator>
                                <value value="1"/>
                            </denominator>
                        </amount>
                        <ingredient>
                            <itemCodeableConcept>
                                <coding>
                                    <system value="http://snomed.info/sct"/>
                                    <code value="386872004"/>
                                    <display value="Ramipril (substance)"/>
                                </coding>
                                <text value="Ramipril"/>
                            </itemCodeableConcept>
                            <strength>
                                <numerator>
                                    <value value="2.5"/>
                                    <unit value="mg"/>
                                </numerator>
                                <denominator>
                                    <value value="1"/>
                                    <unit value="1"/>
                                </denominator>
                            </strength>
                        </ingredient>
                    </Medication>
                </contained>
                <extension url="http://hl7.org/fhir/StructureDefinition/narrativeLink">
                    <valueUrl value="#mtp.1"/>
                </extension>
                <identifier>
                    <system value="urn:ietf:rfc:3986"/>
                    <value value="urn:uuid:c9f758a1-296c-4710-84d4-e181db8c7478"/>
                </identifier>
                <status value="completed"/>
                <medicationReference>
                    <reference value="#med"/>
                    <type value="Medication"/>
                </medicationReference>
                <subject>
                    <reference value="urn:uuid:a8f1870c-6dee-4aae-b3c0-aacec81e3255"/>
                    <type value="Patient"/>
                </subject>
                <reasonCode>
                    <extension url="http://hl7.org/fhir/StructureDefinition/narrativeLink">
                        <valueUrl value="#mtp.1.reason"/>
                    </extension>
                    <text value="Bluthochdruck"/>
                </reasonCode>
                <note>
                    <extension url="http://hl7.org/fhir/StructureDefinition/narrativeLink">
                        <valueUrl value="#mtp.1.note"/>
                    </extension>
                </note>
                <dosage>
                    <extension url="http://fhir.ch/ig/ch-emed/StructureDefinition/ch-emed-ext-dosagetype">
                        <valueIdentifier>
                            <value value="1.3.6.1.4.1.19376.1.5.3.1.4.7.1"/>
                        </valueIdentifier>
                    </extension>
                    <timing>
                        <repeat>
                            <boundsPeriod>
                                <start value="2011-11-29"/>
                            </boundsPeriod>
                            <when value="ACM"/>
                        </repeat>
                    </timing>
                    <route>
                        <coding>
                            <system value="urn:oid:0.4.0.127.0.16.1.1.2.1"/>
                            <code value="20053000"/>
                            <display value="Oral use"/>
                        </coding>
                    </route>
                    <doseAndRate>
                        <doseQuantity>
                            <value value="0.5"/>
                        </doseQuantity>
                    </doseAndRate>
                </dosage>
                <dosage>
                    <extension url="http://hl7.org/fhir/StructureDefinition/narrativeLink">
                        <valueUrl value="#mtp.1.dosageintakemode"/>
                    </extension>
                    <text value="Morgens 1/2 Tablette nehmen"/>
                </dosage>
            </MedicationStatement>
        </resource>
    </entry>
</Bundle>