<?xml version="1.0" encoding="UTF-8"?>

<Bundle xmlns="http://hl7.org/fhir">
  <id value="cbc0babc-f86d-4703-8fb4-e330cb41d596"/>
  <identifier>
    <system value="urn:ietf:rfc:3986"/>
    <value value="urn:uuid:488bd23a-20c6-11e6-b67b-9e71128cae77"/>
  </identifier>
  <type value="document"/>
  <timestamp value="2011-11-29T11:01:00+01:00"/>
  <entry>
    <fullUrl value="urn:uuid:5380646e-daf0-460f-9616-aea06e39248e"/>
    <resource>
      <Composition>
        <id value="5380646e-daf0-460f-9616-aea06e39248e"/>
        <language value="de-CH"/>
        <extension url="http://fhir.ch/ig/ch-core/StructureDefinition/ch-ext-epr-setid">
          <valueIdentifier>
            <system value="urn:ietf:rfc:3986"/>
            <value value="urn:uuid:488bd23a-20c6-11e6-b67b-9e71128cae77"/>
          </valueIdentifier>
        </extension>
        <extension url="http://fhir.ch/ig/ch-core/StructureDefinition/ch-ext-epr-versionnumber">
          <valueUnsignedInt value="1"/>
        </extension>
        <extension url="http://fhir.ch/ig/ch-core/StructureDefinition/ch-ext-epr-informationrecipient">
          <valueReference>
            <reference value="urn:uuid:58069431-cae7-4950-821b-323bc4dd3ba5"/>
            <type value="Patient"/>
          </valueReference>
        </extension>
        <identifier>
          <system value="urn:ietf:rfc:3986"/>
          <value value="urn:uuid:488bd23a-20c6-11e6-b67b-9e71128cae77"/>
        </identifier>
        <status value="final"/>
        <type>
          <coding>
            <system value="http://loinc.org"/>
            <code value="60593-1"/>
            <display value="Medication dispensed.extended"/>
          </coding>
        </type>
        <subject>
          <reference value="urn:uuid:336c2587-f410-4ad9-80c0-be3dc7f8f7aa"/>
          <type value="Patient"/>
        </subject>
        <date value="2011-11-29T11:01:00+01:00"/>
        <author>
          <extension url="http://fhir.ch/ig/ch-core/StructureDefinition/ch-ext-epr-time">
            <valueDateTime value="2011-11-29T11:00:00+01:00"/>
          </extension>
          <reference value="urn:uuid:62c35993-bde1-4d00-a43c-3821b7f52ace"/>
          <type value="Practitioner"/>
        </author>
        <author>
          <reference value="urn:uuid:03086c8c-9708-4310-b318-a5575e1bb3f3"/>
          <type value="Organization"/>
        </author>
        <title value="Abgabe"/>
        <confidentiality value="N">
          <extension url="http://fhir.ch/ig/ch-core/StructureDefinition/ch-ext-epr-confidentialitycode">
            <valueCodeableConcept>
              <coding>
                <system value="http://snomed.info/sct"/>
                <code value="17621005"/>
                <display value="Normally accessible"/>
              </coding>
            </valueCodeableConcept>
          </extension>
        </confidentiality>
        <custodian>
          <reference value="urn:uuid:631c58d1-8e6e-4de5-96d2-041f7934e898"/>
          <type value="Organization"/>
        </custodian>
        <section>
          <extension url="http://fhir.ch/ig/ch-core/StructureDefinition/ch-ext-epr-sectionid">
            <valueIdentifier>
              <system value="urn:ietf:rfc:3986"/>
              <value value="urn:uuid:488bd23a-20c6-11e6-b67b-9e71128cae77"/>
            </valueIdentifier>
          </extension>
          <title value="Abgabe eines Medikaments"/>
          <code>
            <coding>
              <system value="http://loinc.org"/>
              <code value="60590-7"/>
              <display value="Medication dispensed.brief"/>
            </coding>
          </code>
          <text>
            <status value="generated"/>
            <div xmlns="http://www.w3.org/1999/xhtml">
              <table>
                <thead>
                  <tr>
                    <th>Präpartename</th>
                    <th>Wirkstoffname</th>
                    <th>Galenische Form</th>
                    <th>Dosis pro Einheit</th>
                    <th>Anzahl Packungen</th>
                    <th>Packungsgrösse</th>
                    <th>Dosierung</th>
                    <th>Dos.Morgen</th>
                    <th>Dos.Mittag</th>
                    <th>Dos.Abend</th>
                    <th>Dos.Nacht</th>
                    <th>Verabreichungsweg</th>
                    <th>Kommentar</th>
                    <th>Behandlungsrund</th>
                    <th>Datum/Zeit der Abgabe/ Anwendung</th>
                    <th>Identifikation des Empfängers</th>
                  </tr>
                </thead>
                <tbody>
                  <tr id="dis.1">
                    <td id="dis.1.brandedmedication">Triatec</td>
                    <td id="dis.1.ingredient">Ramipril</td>
                    <td id="dis.1.dosequantity">2.5 mg</td>
                    <td id="dis.1.packageform">Tbl</td>
                    <td id="dis.1.nopackages">1</td>
                    <td id="dis.1.packagesize">20</td>
                    <td id="dis.1.dosageintakemode">Morgens 1/2 Tablette nehmen</td>
                    <td id="dis.1.dosagemorning">0.5</td>
                    <td id="dis.1.dosagelunch">0</td>
                    <td id="dis.1.dosageevening">0</td>
                    <td id="dis.1.dosagenight">0</td>
                    <td id="dis.1.routecode">oral</td>
                    <td id="dis.1.note"/>
                    <td id="dis.1.datefromto"/>
                    <td id="dis.1.reason">Bluthochdruck</td>
                    <td id="dis.1.dipsensedate"/>
                    <td id="dis.1.dipsenseto"/>
                  </tr>
                </tbody>
              </table>
            </div>
          </text>
          <entry>
            <reference value="urn:uuid:dc4a64c2-3433-45ec-bcdf-5f884ef86d4e"/>
            <type value="MedicationDispense"/>
          </entry>
        </section>
      </Composition>
    </resource>
  </entry>
  <entry>
    <fullUrl value="urn:uuid:336c2587-f410-4ad9-80c0-be3dc7f8f7aa"/>
    <resource>
      <Patient>
        <id value="336c2587-f410-4ad9-80c0-be3dc7f8f7aa"/>
        <identifier>
          <type>
            <coding>
              <system value="http://terminology.hl7.org/CodeSystem/v2-0203"/>
              <code value="MR"/>
            </coding>
          </type>
          <system value="urn:oid:2.999"/>
          <value value="11111111"/>
        </identifier>
        <name>
          <family value="Wegm&#xFC;ller"/>
          <given value="Monika"/>
        </name>
        <gender value="female"/>
        <birthDate value="1943-05-15"/>
        <address>
          <line value="Wiesenstr. 12"/>
          <city value="Z&#xFC;rich"/>
          <postalCode value="8003"/>
          <country value="CH"/>
        </address>
      </Patient>
    </resource>
  </entry>
  <entry>
    <fullUrl value="urn:uuid:62c35993-bde1-4d00-a43c-3821b7f52ace"/>
    <resource>
      <Practitioner>
        <id value="62c35993-bde1-4d00-a43c-3821b7f52ace"/>
        <identifier>
          <system value="urn:oid:2.51.1.3"/>
          <value value="7601000234438"/>
        </identifier>
        <name>
          <family value="Hausarzt"/>
          <given value="Familien"/>
        </name>
      </Practitioner>
    </resource>
  </entry>
  <entry>
    <fullUrl value="urn:uuid:03086c8c-9708-4310-b318-a5575e1bb3f3"/>
    <resource>
      <Organization>
        <id value="03086c8c-9708-4310-b318-a5575e1bb3f3"/>
        <identifier>
          <system value="urn:oid:2.51.1.3"/>
          <value value="7601000234438"/>
        </identifier>
        <name value="Hausarzt"/>
        <telecom>
          <extension url="http://hl7.org/fhir/StructureDefinition/iso21090-nullFlavor">
            <valueCode value="NI"/>
          </extension>
        </telecom>
        <address>
          <line value="Krankenstrasse 2"/>
          <city value="Z&#xFC;rich"/>
          <postalCode value="8005"/>
          <country value="CH"/>
        </address>
      </Organization>
    </resource>
  </entry>
  <entry>
    <fullUrl value="urn:uuid:631c58d1-8e6e-4de5-96d2-041f7934e898"/>
    <resource>
      <Organization>
        <id value="631c58d1-8e6e-4de5-96d2-041f7934e898"/>
        <identifier>
          <system value="urn:oid:2.51.1.3"/>
          <value value="7601000234438"/>
        </identifier>
        <name value="Hausarzt"/>
      </Organization>
    </resource>
  </entry>
  <entry>
    <fullUrl value="urn:uuid:58069431-cae7-4950-821b-323bc4dd3ba5"/>
    <resource>
      <Patient>
        <id value="58069431-cae7-4950-821b-323bc4dd3ba5"/>
        <name>
          <family value="Wegm&#xFC;ller"/>
          <given value="Monika"/>
        </name>
        <address>
          <line value="Wiesenstr. 12"/>
          <city value="Z&#xFC;rich"/>
          <postalCode value="8003"/>
          <country value="CH"/>
        </address>
      </Patient>
    </resource>
  </entry>
  <entry>
    <fullUrl value="urn:uuid:dc4a64c2-3433-45ec-bcdf-5f884ef86d4e"/>
    <resource>
      <MedicationDispense>
        <id value="dc4a64c2-3433-45ec-bcdf-5f884ef86d4e"/>
        <contained>
          <Medication>
            <id value="med"/>
            <code>
              <extension url="http://hl7.org/fhir/StructureDefinition/narrativeLink">
                <valueUrl value="#dis.1.brandedmedication"/>
              </extension>
              <coding>
                <system value="urn:oid:2.51.1.1"/>
                <code value="7680538751228"/>
                <display value="TRIATEC Tabl 2.5 mg 20 Stk"/>
              </coding>
              <text value="TRIATEC Tabl 2.5 mg"/>
            </code>
            <form>
              <coding>
                <system value="urn:oid:0.4.0.127.0.16.1.1.2.1"/>
                <code value="10219000"/>
                <display value="Tablet"/>
              </coding>
            </form>
            <amount>
              <numerator>
                <value value="20"/>
              </numerator>
              <denominator>
                <value value="1"/>
              </denominator>
            </amount>
            <ingredient>
              <itemCodeableConcept>
                <coding>
                  <system value="http://snomed.info/sct"/>
                  <code value="386872004"/>
                  <display value="Ramipril (substance)"/>
                </coding>
                <text value="Ramipril"/>
              </itemCodeableConcept>
              <strength>
                <numerator>
                  <value value="2.5"/>
                  <unit value="mg"/>
                </numerator>
                <denominator>
                  <value value="1"/>
                  <unit value="1"/>
                </denominator>
              </strength>
            </ingredient>
          </Medication>
        </contained>
        <extension url="http://hl7.org/fhir/StructureDefinition/narrativeLink">
          <valueUrl value="#dis.1"/>
        </extension>
        <extension url="http://fhir.ch/ig/ch-emed/StructureDefinition/ch-emed-ext-treatmentplan">
          <extension url="id">
            <valueIdentifier>
              <system value="urn:ietf:rfc:3986"/>
              <value value="urn:uuid:c9f758a1-296c-4710-84d4-e181db8c7478"/>
            </valueIdentifier>
          </extension>
          <extension url="externalDocumentId">
            <valueIdentifier>
              <system value="urn:ietf:rfc:3986"/>
              <value value="urn:uuid:c9f758a1-296c-4710-84d4-e181db8c7478"/>
            </valueIdentifier>
          </extension>
        </extension>
        <identifier>
          <system value="urn:ietf:rfc:3986"/>
          <value value="urn:uuid:488bd23a-20c6-11e6-b67b-9e71128cae77"/>
        </identifier>
        <status value="completed"/>
        <medicationReference>
          <reference value="#med"/>
        </medicationReference>
        <subject>
          <reference value="urn:uuid:336c2587-f410-4ad9-80c0-be3dc7f8f7aa"/>
          <type value="Patient"/>
        </subject>
        <quantity>
          <value value="1"/>
        </quantity>
        <note>
          <extension url="http://hl7.org/fhir/StructureDefinition/narrativeLink">
            <valueUrl value="#dis.1.note"/>
          </extension>
        </note>
        <dosageInstruction>
          <extension url="http://fhir.ch/ig/ch-emed/StructureDefinition/ch-emed-ext-dosagetype">
            <valueIdentifier>
              <value value="1.3.6.1.4.1.19376.1.5.3.1.4.7.1"/>
            </valueIdentifier>
          </extension>
          <timing>
            <repeat>
              <boundsPeriod>
                <start value="2011-11-29"/>
              </boundsPeriod>
              <when value="ACM"/>
            </repeat>
          </timing>
          <route>
            <coding>
              <system value="urn:oid:0.4.0.127.0.16.1.1.2.1"/>
              <code value="20053000"/>
              <display value="Oral use"/>
            </coding>
          </route>
          <doseAndRate>
            <doseQuantity>
              <value value="0.5"/>
            </doseQuantity>
          </doseAndRate>
        </dosageInstruction>
        <dosageInstruction>
          <extension url="http://hl7.org/fhir/StructureDefinition/narrativeLink">
            <valueUrl value="#dis.1.dosageintakemode"/>
          </extension>
          <text value="Morgens 1/2 Tablette nehmen"/>
        </dosageInstruction>
        <substitution>
          <wasSubstituted value="true"/>
          <type>
            <coding>
              <system value="http://terminology.hl7.org/CodeSystem/v3-substanceAdminSubstitution"/>
              <code value="E"/>
              <display value="equivalent"/>
            </coding>
          </type>
        </substitution>
      </MedicationDispense>
    </resource>
  </entry>
</Bundle>