<?xml version="1.0" encoding="UTF-8"?>

<Bundle xmlns="http://hl7.org/fhir">
  <identifier>
    <system value="urn:ietf:rfc:3986"/>
    <value value="urn:uuid:31397b31-be60-47e1-bec6-f37816d42b0c"/>
  </identifier>
  <type value="document"/>
  <timestamp value="2017-10-03T17:33:00+01:00"/>
  <entry>
    <resource>
      <Composition>
        <language value="de-CH"/>
        <extension url="http://fhir.ch/ig/ch-core/StructureDefinition/ch-ext-epr-setid">
          <valueIdentifier>
            <system value="urn:ietf:rfc:3986"/>
            <value value="urn:uuid:807563c2-5146-11d5-a672-00b0d022e945"/>
          </valueIdentifier>
        </extension>
        <extension url="http://fhir.ch/ig/ch-core/StructureDefinition/ch-ext-epr-versionnumber">
          <valueUnsignedInt value="2"/>
        </extension>
        <extension url="http://fhir.ch/ig/ch-core/StructureDefinition/ch-ext-epr-informationrecipient">
          <valueReference>
            <reference value="Organization/4b687d5f-efbc-4977-88ce-54fbb0ad6724"/>
          </valueReference>
        </extension>
        <extension url="http://fhir.ch/ig/ch-core/StructureDefinition/ch-ext-epr-dataenterer">
          <extension url="enterer">
            <valueReference>
              <reference value="Person/b62fb68f-be0c-4081-b910-0f5447145d1e"/>
            </valueReference>
          </extension>
          <extension url="http://fhir.ch/ig/ch-core/StructureDefinition/ch-ext-epr-time">
            <valueDateTime value="2017-10-03T13:15:00+01:00"/>
          </extension>
        </extension>
        <identifier>
          <system value="urn:ietf:rfc:3986"/>
          <value value="urn:uuid:807563c2-5146-11d5-a672-00b0d022e945"/>
        </identifier>
        <status value="final"/>
        <type>
          <coding>
            <system value="http://loinc.org"/>
            <code value="28616-1"/>
            <display value="Physician Transfer note"/>
          </coding>
          <coding>
            <system value="http://snomed.info/sct"/>
            <code value="371535009"/>
            <display value="Transfer summary report"/>
          </coding>
        </type>
        <subject>
          <reference value="Patient/e9f3932a-9b4d-4d9f-a32a-e438f506a4cb"/>
        </subject>
        <date value="2017-10-03T17:33:00+01:00"/>
        <author>
          <extension url="http://fhir.ch/ig/ch-core/StructureDefinition/ch-ext-epr-time">
            <valueDateTime value="2017-10-03T16:09:00+01:00"/>
          </extension>
          <reference value="Practitioner/50ae5802-2bb0-45c2-9c54-90795e9663ad"/>
        </author>
        <author>
          <reference value="Organization/239bc54d-5238-4535-bc59-94bb8d2a8320"/>
        </author>
        <title value="Zuweisung zur Radiologischen Diagnostik"/>
        <confidentiality value="N">
          <extension url="http://fhir.ch/ig/ch-core/StructureDefinition/ch-ext-epr-confidentialitycode">
            <valueCodeableConcept>
              <coding>
                <system value="http://snomed.info/sct"/>
                <code value="17621005"/>
                <display value="Normally accessible"/>
              </coding>
            </valueCodeableConcept>
          </extension>
        </confidentiality>
        <attester>
          <mode value="legal"/>
          <time value="2017-10-03"/>
          <party>
            <reference value="Practitioner/430993a4-477d-4922-a264-0ef436e012cb"/>
          </party>
        </attester>
        <custodian>
          <reference value="Organization/6937743b-a6e2-4aca-b0c4-47dfbdc0e87a"/>
        </custodian>
        <section>
          <title value="Gewünschte Untersuchung"/>
          <text>
            <status value="generated"/>
            <div xmlns="http://www.w3.org/1999/xhtml">
              <span>
							Der Patient erwartet Ihr Aufgebot zur Untersuchung.<br/>
              </span>
              <span style="font-style: italic">
							Spezifizierung der gewünschten Untersuchung<br/>
              </span>
            </div>
          </text>
        </section>
        <section>
          <title value="Dringlichkeit / Wunschtermin"/>
          <text>
            <status value="generated"/>
            <div xmlns="http://www.w3.org/1999/xhtml">
              <span style="font-style: italic">
							Angaben zum gewünschten Termin
						  </span>
            </div>
          </text>
        </section>
        <section>
          <title value="Fragestellung"/>
          <text>
            <status value="generated"/>
            <div xmlns="http://www.w3.org/1999/xhtml">
              <span style="font-style: italic">
							Grund für die Durchführung der Untersuchung und Angaben zum aktuellen Leiden resp. zum Grund der Untersuchung
						  </span>
            </div>
          </text>
        </section>
        <section>
          <title value="Angaben zum Patienten"/>
          <text>
            <status value="generated"/>
            <div xmlns="http://www.w3.org/1999/xhtml">
              <span style="font-style: italic">
							Erfolgte Voruntersuchungen<br/>
							Befundkopie – Empfänger<br/>
              </span>
            </div>
          </text>
        </section>
        <section>
          <title value="Klinische Angaben"/>
          <text>
            <status value="generated"/>
            <div xmlns="http://www.w3.org/1999/xhtml">
              <span style="font-style: italic">
							Beschreibung des aktuellen Leidens<br/>
							Schwangerschaft ja / nein<br/>
							Laborwerte (Quick / Tc, Kreatinin)<br/>
							Bekannte Allergien<br/>
              </span>
            </div>
          </text>
        </section>
      </Composition>
    </resource>
  </entry>
  <entry>
    <resource>
      <Patient>
        <id value="e9f3932a-9b4d-4d9f-a32a-e438f506a4cb"/>
        <identifier>
          <type>
            <coding>
              <system value="http://terminology.hl7.org/CodeSystem/v2-0203"/>
              <code value="MR"/>
            </coding>
          </type>
          <system value="urn:oid:2.16.756.888888.3.1"/>
          <value value="8733"/>
        </identifier>
        <name>
          <family value="MUSTER"/>
          <given value="Max"/>
        </name>
        <telecom>
          <system value="phone"/>
          <value value="+41.32.685.12.34"/>
          <use value="home"/>
        </telecom>
        <telecom>
          <system value="phone"/>
          <value value="+41.32.123.77.88"/>
          <use value="work"/>
        </telecom>
        <telecom>
          <system value="email"/>
          <value value="max.muster@sampledomain.ch"/>
          <use value="work"/>
        </telecom>
        <gender value="male"/>
        <birthDate value="1938-12-12"/>
        <address>
          <use value="home"/>
          <line value="Leidensweg"/>
          <line value="10"/>
          <city value="Specimendorf"/>
          <postalCode value="9999"/>
          <country value="CH"/>
        </address>
        <managingOrganization>
          <reference value="Organization/af580665-cd3b-4800-af9c-1b94e0b19f91"/>
        </managingOrganization>
      </Patient>
    </resource>
  </entry>
  <entry>
    <resource>
      <Organization>
        <id value="af580665-cd3b-4800-af9c-1b94e0b19f91"/>
        <identifier>
          <system value="urn:oid:2.51.1.3"/>
          <value value="7601000201041"/>
        </identifier>
        <name value="Gruppenpraxis CH, Dr. med. Allzeit Bereit"/>
      </Organization>
    </resource>
  </entry>
  <entry>
    <resource>
      <Practitioner>
        <id value="50ae5802-2bb0-45c2-9c54-90795e9663ad"/>
        <identifier>
          <system value="urn:oid:2.51.1.3"/>
          <value value="7601000201041"/>
        </identifier>
        <name>
          <family value="Bereit"/>
          <given value="Allzeit"/>
          <prefix value="Dr. med."/>
          <suffix value="Facharzt für Allgemeine Medizin"/>
        </name>
      </Practitioner>
    </resource>
  </entry>
  <entry>
    <resource>
      <Organization>
        <id value="239bc54d-5238-4535-bc59-94bb8d2a8320"/>
        <identifier>
          <system value="urn:oid:2.51.1.3"/>
          <value value="7601000201041"/>
        </identifier>
        <name value="Gruppenpraxis CH"/>
        <telecom>
          <system value="phone"/>
          <value value="+41.32.234.55.66"/>
          <use value="work"/>
        </telecom>
        <telecom>
          <system value="fax"/>
          <value value="+41.32.234.66.77"/>
          <use value="work"/>
        </telecom>
        <telecom>
          <system value="email"/>
          <value value="bereit@gruppenpraxis.ch"/>
          <use value="work"/>
        </telecom>
        <telecom>
          <system value="url"/>
          <value value="http://www.gruppenpraxis.ch"/>
          <use value="work"/>
        </telecom>
        <address>
          <use value="work"/>
          <line value="Doktorgasse"/>
          <line value="2"/>
          <city value="Musterhausen"/>
          <postalCode value="8888"/>
          <country value="CH"/>
        </address>
      </Organization>
    </resource>
  </entry>
  <entry>
    <resource>
      <Practitioner>
        <id value="430993a4-477d-4922-a264-0ef436e012cb"/>
        <identifier>
          <system value="urn:oid:2.51.1.3"/>
          <value value="7601000201041"/>
        </identifier>
        <name>
          <family value="Bereit"/>
          <given value="Allzeit"/>
          <prefix value="Dr. med."/>
          <suffix value="Facharzt für Allgemeine Medizin"/>
        </name>
      </Practitioner>
    </resource>
  </entry>
  <entry>
    <resource>
      <Organization>
        <id value="6937743b-a6e2-4aca-b0c4-47dfbdc0e87a"/>
        <identifier>
          <system value="urn:oid:2.51.1.3"/>
          <value value="7601000201041"/>
        </identifier>
        <name value="Gruppenpraxis CH, Dr. med. Allzeit Bereit, Facharzt für Allgemeine Medizin"/>
        <address>
          <use value="work"/>
          <line value="Doktorgasse"/>
          <line value="2"/>
          <city value="Musterhausen"/>
          <postalCode value="8888"/>
          <country value="CH"/>
        </address>
      </Organization>
    </resource>
  </entry>
  <entry>
    <resource>
      <Organization>
        <id value="4b687d5f-efbc-4977-88ce-54fbb0ad6724"/>
        <name value="RoDiag Radiologieinstitut"/>
        <address>
          <use value="work"/>
          <line value="Röntgenstr."/>
          <line value="1"/>
          <city value="Musterhausen"/>
          <postalCode value="8888"/>
          <country value="CH"/>
        </address>
      </Organization>
    </resource>
  </entry>
  <entry>
    <resource>
      <Person>
        <id value="b62fb68f-be0c-4081-b910-0f5447145d1e"/>
        <identifier>
          <system value="urn:oid:2.999"/>
          <value value="0812763"/>
        </identifier>
        <name>
          <family value="Kraft"/>
          <given value="Schreib"/>
        </name>
      </Person>
    </resource>
  </entry>
</Bundle>