<?xml version="1.0" encoding="UTF-8"?>
<Bundle xmlns="http://hl7.org/fhir">
  <identifier>
    <system value="urn:ietf:rfc:3986"/>
    <value value="urn:uuid:d41d72ba-2100-11e6-b67b-9e71128cae77"/>
  </identifier>
  <type value="document"/>
  <timestamp value="2012-02-04T14:00:00+01:00"/>
  <entry>
    <resource>
      <Composition>
        <language value="de-CH"/>
        <extension url="http://fhir.ch/ig/ch-core/StructureDefinition/ch-ext-epr-setid">
          <valueIdentifier>
            <system value="urn:ietf:rfc:3986"/>
            <value value="urn:uuid:d41d72ba-2100-11e6-b67b-9e71128cae77"/>
          </valueIdentifier>
        </extension>
        <extension url="http://fhir.ch/ig/ch-core/StructureDefinition/ch-ext-epr-versionnumber">
          <valueInteger value="1"/>
        </extension>
        <extension url="http://fhir.ch/ig/ch-core/StructureDefinition/ch-ext-epr-informationrecipient">
          <valueReference>
            <reference value="Patient/ef7a6405-0511-4523-be1b-2e2412dafe75"/>
          </valueReference>
        </extension>
        <identifier>
          <system value="urn:ietf:rfc:3986"/>
          <value value="urn:uuid:d41d72ba-2100-11e6-b67b-9e71128cae77"/>
        </identifier>
        <status value="final"/>
        <type>
          <coding>
            <system value="http://loinc.org"/>
            <code value="57833-6"/>
            <display value="Prescription for medication"/>
          </coding>
          <coding>
            <system value="http://snomed.info/sct"/>
            <code value="761938008"/>
            <display value="Medical Prescription record (record artifact)"/>
          </coding>
        </type>
        <subject>
          <reference value="Patient/cd79918d-1f7b-41c3-a90f-7f12148d9ac7"/>
        </subject>
        <date value="2012-02-04T14:00:00+01:00"/>
        <author>
          <reference value="Practitioner/09ca0071-21ca-485f-84eb-85fd714a0d99"/>
        </author>
        <author>
          <reference value="Organization/afcee4cc-5fdd-4e59-8e09-985bb4ea555b"/>
        </author>
        <title value="Rezept"/>
        <confidentiality value="N">
          <extension url="http://fhir.ch/ig/ch-core/StructureDefinition/ch-ext-epr-confidentialitycode">
            <valueCodeableConcept>
              <coding>
                <system value="http://snomed.info/sct"/>
                <code value="17621005"/>
                <display value="Normally accessible"/>
              </coding>
            </valueCodeableConcept>
          </extension>
        </confidentiality>
        <custodian>
          <reference value="Organization/0b65978b-d97a-4571-9909-6b226230a5b1"/>
        </custodian>
        <section>
          <title value="Arzneimittelverordnung"/>
          <code>
            <coding>
              <system value="http://loinc.org"/>
              <code value="57828-6"/>
              <display value="PRESCRIPTIONS"/>
            </coding>
          </code>
          <text>
            <status value="generated"/>
            <div 
              xmlns="http://www.w3.org/1999/xhtml">
              <table>
                <thead>
                  <tr>
                    <th>Präpartename</th>
                    <th>Wirkstoffname</th>
                    <th>Galenische Form</th>
                    <th>Dosis pro Einheit</th>
                    <th>Wiederholter Bezug pro Arzneimittel</th>
                    <th>Dosierung</th>
                    <th>Dos.Morgen</th>
                    <th>Dos.Mittag</th>
                    <th>Dos.Abend</th>
                    <th>Dos.Nacht</th>
                    <th>Verabreichungsweg</th>
                    <th>Kommentar</th>
                    <th>Anwendungsdauer</th>
                    <th>Substituierbarkeit</th>
                    <th>Behandlungsgrund</th>
                    <!-- added in order to make the reference id valid for reason -->
                  </tr>
                </thead>
                <tbody>
                  <tr id="pre.1">
                    <td id="pre.1.brandedmedication">Norvasc</td>
                    <td id="pre.1.ingredient">Amlodipin</td>
                    <td id="pre.1.dosequantity">Tbl</td>
                    <td id="pre.1.packageform">10 mg/TblaTabl</td>
                    <td id="pre.1.repeat">Dauerrezept 3 Monate</td>
                    <td id="pre.1.dosageintakemode">Morgens und abends je 1 Tablette nehmen</td>
                    <td id="pre.1.packagesize">30</td>
                    <td id="pre.1.dosagemorning">1</td>
                    <td id="pre.1.dosagelunch">0</td>
                    <td id="pre.1.dosageevening">1</td>
                    <td id="pre.1.dosagenight">0</td>
                    <td id="pre.1.routecode">oral</td>
                    <td id="pre.1.note"/>
                    <td id="pre.1.datefromto"/>
                    <td id="pre.1.subst"/>
                    <td id="pre.1.reason"/>
                    <!-- added in order to make the reference id valid -->
                  </tr>
                </tbody>
              </table>
            </div>
          </text>
          <entry>
            <reference value="MedicationRequest/355e4225-25c9-4eaf-8371-c9dba8830733"/>
          </entry>
        </section>
      </Composition>
    </resource>
  </entry>
  <entry>
    <resource>
      <Patient>
        <id value="cd79918d-1f7b-41c3-a90f-7f12148d9ac7"/>
        <identifier>
          <system value="urn:oid:2.999"/>
          <value value="11111111"/>
        </identifier>
        <name>
          <family value="Wegm&#xFC;ller"/>
          <given value="Monika"/>
        </name>
        <gender value="female"/>
        <birthDate value="1943-05-15"/>
      </Patient>
    </resource>
  </entry>
  <entry>
    <resource>
      <Practitioner>
        <id value="09ca0071-21ca-485f-84eb-85fd714a0d99"/>
        <identifier>
          <system value="urn:oid:2.51.1.3"/>
          <value value="7601000234438"/>
        </identifier>
        <name>
          <family value="Hausarzt"/>
          <given value="Familien"/>
        </name>
      </Practitioner>
    </resource>
  </entry>
  <entry>
    <resource>
      <Organization>
        <id value="afcee4cc-5fdd-4e59-8e09-985bb4ea555b"/>
        <identifier>
          <system value="urn:oid:2.51.1.3"/>
          <value value="7601000234438"/>
        </identifier>
        <name value="Hausarzt"/>
        <telecom>
          <extension url="http://hl7.org/fhir/StructureDefinition/iso21090-nullFlavor">
            <valueString value="NI"/>
          </extension>
        </telecom>
      </Organization>
    </resource>
  </entry>
  <entry>
    <resource>
      <Organization>
        <id value="0b65978b-d97a-4571-9909-6b226230a5b1"/>
        <identifier>
          <system value="urn:oid:2.51.1.3"/>
          <value value="7601000234438"/>
        </identifier>
        <name value="Hausarzt"/>
      </Organization>
    </resource>
  </entry>
  <entry>
    <resource>
      <Patient>
        <id value="ef7a6405-0511-4523-be1b-2e2412dafe75"/>
        <name>
          <family value="Wegm&#xFC;ller"/>
          <given value="Monika"/>
        </name>
      </Patient>
    </resource>
  </entry>
  <entry>
    <resource>
      <MedicationRequest>
        <id value="355e4225-25c9-4eaf-8371-c9dba8830733"/>
        <contained>
          <Medication>
            <id value="med"/>
            <code>
              <coding>
                <system value="urn:oid:2.51.1.1"/>
                <code value="7680500440334"/>
                <display value="NORVASC Tabl 10 mg"/>
              </coding>
            </code>
            <form>
              <coding>
                <system value="urn:oid:0.4.0.127.0.16.1.1.2.1"/>
                <code value="10219000"/>
                <display value="Tablet"/>
              </coding>
            </form>
            <amount>
              <numerator>
                <value value="30"/>
                <unit value="tablets"/>
                <system value="http://unitsofmeasure.org"/>
                <code value="1"/>
              </numerator>
              <denominator>
                <value value="1"/>
                <unit value="Package"/>
                <system value="http://unitsofmeasure.org"/>
                <code value="1"/>
              </denominator>
            </amount>
            <ingredient>
              <itemCodeableConcept>
                <coding>
                  <system value="http://hl7.org/fhir/sid/atc"/>
                  <code value="C08CA01"/>
                  <display value="amlodipine"/>
                </coding>
                <text value="amlodipine"/>
              </itemCodeableConcept>
              <strength>
                <numerator>
                  <value value="10"/>
                  <code value="mg"/>
                </numerator>
                <denominator>
                  <value value="1"/>
                </denominator>
              </strength>
            </ingredient>
          </Medication>
        </contained>
        <extension url="http://hl7.org/fhir/StructureDefinition/narrativeLink">
          <valueUrl value="#pre.1"/>
        </extension>
        <extension url="http://fhir.ch/ig/ch-emed/StructureDefinition/ch-emed-ext-treatmentplan">
          <extension url="id">
            <valueIdentifier>
              <system value="urn:ietf:rfc:3986"/>
              <value value="urn:uuid:5712fffe-20c6-11e6-b67b-9e71128cae77"/>
            </valueIdentifier>
          </extension>
          <extension url="externalDocumentId">
            <valueIdentifier>
              <system value="urn:ietf:rfc:3986"/>
              <value value="urn:uuid:5712fffe-20c6-11e6-b67b-9e71128cae77"/>
            </valueIdentifier>
          </extension>
        </extension>
        <identifier>
          <system value="urn:ietf:rfc:3986"/>
          <value value="urn:uuid:d41d72ba-2100-11e6-b67b-9e71128cae77"/>
        </identifier>
        <status value="completed"/>
        <intent value="order"/>
        <medicationReference>
          <reference value="#med"/>
        </medicationReference>
        <subject>
          <reference value="Patient/cd79918d-1f7b-41c3-a90f-7f12148d9ac7"/>
        </subject>
        <note>
          <extension url="http://hl7.org/fhir/StructureDefinition/narrativeLink">
            <valueUrl value="#pre.1.note"/>
          </extension>
        </note>
        <dosageInstruction>
          <timing>
            <repeat>
              <boundsPeriod>
                <start value="2012-02-04"/>
              </boundsPeriod>
              <when value="ACM"/>
              <when value="ACV"/>
            </repeat>
          </timing>
          <route>
            <coding>
              <system value="urn:oid:0.4.0.127.0.16.1.1.2.1"/>
              <code value="20053000"/>
              <display value="Oral use"/>
            </coding>
          </route>
        </dosageInstruction>
        <dosageInstruction>
          <extension url="http://hl7.org/fhir/StructureDefinition/narrativeLink">
            <valueUrl value="#pre.1.dosageintakemode"/>
          </extension>
          <text value="Morgens und abends je 1 Tablette nehmen"/>
        </dosageInstruction>
      </MedicationRequest>
    </resource>
  </entry>
</Bundle>