<?xml version="1.0" encoding="UTF-8"?>

<Bundle xmlns="http://hl7.org/fhir">
    <identifier>
        <system value="urn:ietf:rfc:3986"/>
        <value value="urn:uuid:d8143fea-4778-11e6-beb8-9e71128cae77"/>
    </identifier>
    <type value="document"/>
    <timestamp value="2012-02-04T14:00:00+01:00"/>
    <entry>
        <resource>
            <Composition>
                <language value="de-CH"/>
                <extension url="http://fhir.ch/ig/ch-core/StructureDefinition/ch-ext-epr-setid">
                    <valueIdentifier>
                        <system value="urn:ietf:rfc:3986"/>
                        <value value="urn:uuid:d8143fea-4778-11e6-beb8-9e71128cae77"/>
                    </valueIdentifier>
                </extension>
                <extension url="http://fhir.ch/ig/ch-core/StructureDefinition/ch-ext-epr-versionnumber">
                    <valueInteger value="1"/>
                </extension>
                <extension url="http://fhir.ch/ig/ch-core/StructureDefinition/ch-ext-epr-informationrecipient">
                    <valueReference>
                        <reference value="Patient/6c870b77-10a7-404f-befa-d97894990595"/>
                    </valueReference>
                </extension>
                <identifier>
                    <system value="urn:ietf:rfc:3986"/>
                    <value value="urn:uuid:d8143fea-4778-11e6-beb8-9e71128cae77"/>
                </identifier>
                <status value="final"/>
                <type>
                    <coding>
                        <system value="http://loinc.org"/>
                        <code value="60593-1"/>
                        <display value="Medication dispensed.extended"/>
                    </coding>
                </type>
                <subject>
                    <reference value="Patient/c1c6fe62-2b5b-4fcd-a738-64f05f862f5b"/>
                </subject>
                <date value="2012-02-04T14:00:00+01:00"/>
                <author>
                    <extension url="http://fhir.ch/ig/ch-core/StructureDefinition/ch-ext-epr-time">
                        <valueDateTime value="2012-02-04T14:00:00+01:00"/>
                    </extension>
                    <reference value="Practitioner/508a702d-d957-479a-9b62-b1059c7e2519"/>
                </author>
                <author>
                    <reference value="Organization/24e04392-e4bf-4e58-8436-8c0349133005"/>
                </author>
                <title value="Abgabe"/>
                <confidentiality value="N">
                    <extension url="http://fhir.ch/ig/ch-core/StructureDefinition/ch-ext-epr-confidentialitycode">
                        <valueCodeableConcept>
                            <coding>
                                <system value="http://snomed.info/sct"/>
                                <code value="17621005"/>
                                <display value="Normally accessible"/>
                            </coding>
                        </valueCodeableConcept>
                    </extension>
                </confidentiality>
                <custodian>
                    <reference value="Organization/a85aa92d-dae5-451b-a816-2fdf3f5fa14d"/>
                </custodian>
                <section>
                    <extension url="http://fhir.ch/ig/ch-core/StructureDefinition/ch-ext-epr-sectionid">
                        <valueIdentifier>
                            <system value="urn:ietf:rfc:3986"/>
                            <value value="urn:uuid:d8143fea-4778-11e6-beb8-9e71128cae77"/>
                        </valueIdentifier>
                    </extension>
                    <title value="Abgabe eines Medikaments"/>
                    <code>
                        <coding>
                            <system value="http://loinc.org"/>
                            <code value="60590-7"/>
                            <display value="Medication dispensed.brief"/>
                        </coding>
                    </code>
                    <text>
                        <status value="generated"/>
                        <div xmlns="http://www.w3.org/1999/xhtml">
                            <table>
                                <thead>
                                    <tr>
                                        <th>Präpartename</th>
                                        <th>Wirkstoffname</th>
                                        <th>Galenische Form</th>
                                        <th>Dosis pro Einheit</th>
                                        <th>Anzahl Packungen</th>
                                        <th>Packungsgrösse</th>
                                        <th>Dosierung</th>
                                        <th>Dos.Morgen</th>
                                        <th>Dos.Mittag</th>
                                        <th>Dos.Abend</th>
                                        <th>Dos.Nacht</th>
                                        <th>Verabreichungsweg</th>
                                        <th>Kommentar</th>
                                        <th>Behandlungsrund</th>
                                        <th>Datum/Zeit der Abgabe/ Anwendung</th>
                                        <th>Identifikation des Empfängers</th>
                                    </tr>
                                </thead>
                                <tbody>
                                    <tr id="dis.1">
                                        <td id="dis.1.brandedmedication">Beloc Zok</td>
                                        <td id="dis.1.ingredient">Metoprolol</td>
                                        <td id="dis.1.packageform">Ret Tbl</td>
                                        <td id="dis.1.dosequantity">50 mg</td>
                                        <td id="dis.1.nopackages">1</td>
                                        <td id="dis.1.packagesize">30 Stk</td>
                                        <td id="dis.1.dosageintakemode">Morgens 1 und abends 1/2 Tablette nehmen</td>
                                        <td id="dis.1.dosagemorning">1</td>
                                        <td id="dis.1.dosagelunch">0</td>
                                        <td id="dis.1.dosageevening">0.5</td>
                                        <td id="dis.1.routecode">oral</td>
                                        <td id="dis.1.note"/>
                                        <td id="dis.1.datefromto"/>
                                        <td id="dis.1.reason">Bluthochdruck</td>
                                        <td id="dis.1.dipsensedate"/>
                                        <td id="dis.1.dipsenseto"/>
                                    </tr>
                                </tbody>
                            </table>
                        </div>
                    </text>
                    <entry>
                        <reference value="MedicationDispense/9197a36d-be62-4726-ae49-b1ca2a84da66"/>
                    </entry>
                </section>
            </Composition>
        </resource>
    </entry>
    <entry>
        <resource>
            <Patient>
                <id value="c1c6fe62-2b5b-4fcd-a738-64f05f862f5b"/>
                <identifier>
                    <system value="urn:oid:2.999"/>
                    <value value="11111111"/>
                </identifier>
                <name>
                    <family value="Wegm&#xFC;ller"/>
                    <given value="Monika"/>
                </name>
                <gender value="female"/>
                <birthDate value="1943-05-15"/>
                <address>
                    <line value="Wiesenstr. 12"/>
                    <city value="Z&#xFC;rich"/>
                    <postalCode value="8003"/>
                    <country value="CH"/>
                </address>
            </Patient>
        </resource>
    </entry>
    <entry>
        <resource>
            <Practitioner>
                <id value="508a702d-d957-479a-9b62-b1059c7e2519"/>
                <identifier>
                    <system value="urn:oid:2.51.1.3"/>
                    <value value="7601000234438"/>
                </identifier>
                <name>
                    <family value="Hausarzt"/>
                    <given value="Familien"/>
                </name>
            </Practitioner>
        </resource>
    </entry>
    <entry>
        <resource>
            <Organization>
                <id value="24e04392-e4bf-4e58-8436-8c0349133005"/>
                <identifier>
                    <system value="urn:oid:2.51.1.3"/>
                    <value value="7601000234438"/>
                </identifier>
                <name value="Hausarzt"/>
                <telecom>
                    <extension url="http://hl7.org/fhir/StructureDefinition/iso21090-nullFlavor">
                        <valueString value="NI"/>
                    </extension>
                </telecom>
                <address>
                    <line value="Krankenstrasse 2"/>
                    <city value="Z&#xFC;rich"/>
                    <postalCode value="8005"/>
                    <country value="CH"/>
                </address>
            </Organization>
        </resource>
    </entry>
    <entry>
        <resource>
            <Organization>
                <id value="a85aa92d-dae5-451b-a816-2fdf3f5fa14d"/>
                <identifier>
                    <system value="urn:oid:2.51.1.3"/>
                    <value value="7601000234438"/>
                </identifier>
                <name value="Hausarzt"/>
            </Organization>
        </resource>
    </entry>
    <entry>
        <resource>
            <Patient>
                <id value="6c870b77-10a7-404f-befa-d97894990595"/>
                <name>
                    <family value="Wegm&#xFC;ller"/>
                    <given value="Monika"/>
                </name>
                <address>
                    <line value="Wiesenstr. 12"/>
                    <city value="Z&#xFC;rich"/>
                    <postalCode value="8003"/>
                    <country value="CH"/>
                </address>
            </Patient>
        </resource>
    </entry>
    <entry>
        <resource>
            <MedicationDispense>
                <id value="9197a36d-be62-4726-ae49-b1ca2a84da66"/>
                <contained>
                    <Medication>
                        <id value="med"/>
                        <code>
                            <extension url="http://hl7.org/fhir/StructureDefinition/narrativeLink">
                                <valueUrl value="#dis.1.brandedmedication"/>
                            </extension>
                            <coding>
                                <system value="urn:oid:2.51.1.1"/>
                                <code value="7680521101306"/>
                                <display value="BELOC ZOK Ret Tabl 50 mg 30 Stk"/>
                            </coding>
                            <text value="BELOC ZOK Ret Tabl 50 mg"/>
                        </code>
                        <form>
                            <coding>
                                <system value="urn:oid:0.4.0.127.0.16.1.1.2.1"/>
                                <code value="10219000"/>
                                <display value="Tablet"/>
                            </coding>
                        </form>
                        <amount>
                            <numerator>
                                <value value="30"/>
                                <unit value="tablets"/>
                                <system value="http://unitsofmeasure.org"/>
                                <code value="1"/>
                            </numerator>
                            <denominator>
                                <value value="1"/>
                                <unit value="Package"/>
                                <system value="http://unitsofmeasure.org"/>
                                <code value="1"/>
                            </denominator>
                        </amount>
                        <ingredient>
                            <itemCodeableConcept>
                                <coding>
                                    <system value="http://snomed.info/sct"/>
                                    <code value="372826007"/>
                                    <display value="Metoprolol (substance)"/>
                                </coding>
                                <text value="Metoprolol"/>
                            </itemCodeableConcept>
                            <strength>
                                <numerator>
                                    <value value="50"/>
                                    <code value="mg"/>
                                </numerator>
                                <denominator>
                                    <value value="1"/>
                                </denominator>
                            </strength>
                        </ingredient>
                    </Medication>
                </contained>
                <extension url="http://hl7.org/fhir/StructureDefinition/narrativeLink">
                    <valueUrl value="#dis.1"/>
                </extension>
                <extension url="http://fhir.ch/ig/ch-emed/StructureDefinition/ch-emed-ext-treatmentplan">
                    <extension url="id">
                        <valueIdentifier>
                            <system value="urn:ietf:rfc:3986"/>
                            <value value="urn:uuid:17931678-20b4-11e6-b67b-9e71128cca77"/>
                        </valueIdentifier>
                    </extension>
                    <extension url="externalDocumentId">
                        <valueIdentifier>
                            <system value="urn:ietf:rfc:3986"/>
                            <value value="urn:uuid:17931678-20b4-11e6-b67b-9e71128cca77"/>
                        </valueIdentifier>
                    </extension>
                </extension>
                <identifier>
                    <system value="urn:ietf:rfc:3986"/>
                    <value value="urn:uuid:d8143fea-4778-11e6-beb8-9e71128cae77"/>
                </identifier>
                <status value="completed"/>
                <medicationReference>
                    <reference value="#med"/>
                </medicationReference>
                <subject>
                    <reference value="Patient/c1c6fe62-2b5b-4fcd-a738-64f05f862f5b"/>
                </subject>
                <note>
                    <extension url="http://hl7.org/fhir/StructureDefinition/narrativeLink">
                        <valueUrl value="#dis.1.note"/>
                    </extension>
                </note>
                <dosageInstruction>
                    <extension url="http://hl7.org/fhir/StructureDefinition/narrativeLink">
                        <valueUrl value="#dis.1.dosageintakemode"/>
                    </extension>
                    <text value="Morgens 1 und abends 1/2 Tablette nehmen"/>
                </dosageInstruction>
            </MedicationDispense>
        </resource>
    </entry>
</Bundle>